aX,aY,aZ,gX,gY,gZ
2.149,-0.296,-0.261,-58.289,59.326,0.732
2.133,-0.401,-0.332,-60.547,59.448,14.282
2.060,-0.475,-0.318,-63.232,48.706,33.325
1.970,-0.520,-0.251,-67.322,34.180,53.101
1.906,-0.550,-0.288,-71.106,21.362,72.876
1.817,-0.558,-0.375,-73.853,9.155,92.834
1.678,-0.477,-0.486,-75.195,-9.766,111.511
1.505,-0.305,-0.544,-76.599,-41.443,123.108
1.081,-0.167,-0.589,-80.383,-81.604,100.586
0.294,0.228,-0.379,-70.435,-143.433,77.698
0.659,0.262,-0.442,-60.242,-139.954,46.997
0.435,-0.469,-0.249,-53.528,-139.038,19.165
-0.032,-0.162,-0.719,-54.443,-123.596,54.871
-0.131,0.059,-0.352,-14.771,-140.808,83.618
-0.100,-0.068,0.098,26.917,-129.944,106.812
-0.206,-0.148,0.037,50.232,-71.838,118.347
-0.399,-0.103,0.186,49.927,-80.811,124.451
-0.556,0.002,0.421,50.110,-87.219,129.395
-0.599,0.057,0.558,62.988,-79.407,124.268
-0.635,0.141,0.687,82.397,-62.805,113.281
-0.647,0.297,0.766,99.182,-42.847,106.079
-0.664,0.458,0.772,114.136,-21.423,97.656
-0.631,0.566,0.847,126.709,-3.723,82.031
-0.559,0.592,0.942,133.728,12.939,58.533
-0.475,0.534,0.900,129.578,32.959,33.142
-0.370,0.496,0.745,112.854,49.438,14.221
-0.308,0.415,0.659,92.163,53.894,4.333
-0.213,0.348,0.720,69.336,47.852,-0.366
-0.133,0.275,0.734,42.114,44.556,-3.052
-0.010,0.250,0.558,14.709,48.523,-3.540
0.050,0.366,0.285,-14.526,53.406,0.122
0.058,0.631,0.055,-37.903,53.528,3.235
0.083,0.922,-0.127,-47.791,51.514,-5.798
0.118,1.021,-0.277,-44.678,51.025,-35.217
0.209,0.835,-0.377,-28.442,52.734,-74.463
0.292,0.538,-0.430,-4.150,55.603,-108.459
0.453,0.211,-0.439,18.982,56.946,-130.981
0.698,-0.091,-0.380,39.490,53.406,-144.775
0.875,-0.410,-0.317,47.485,46.570,-150.513
0.932,-0.644,-0.296,42.419,39.429,-143.250
0.971,-0.658,-0.315,35.461,35.156,-91.492
0.938,-0.434,-0.298,25.146,26.855,-64.758
0.948,-0.302,-0.232,24.719,21.240,-45.654
0.974,-0.242,-0.167,25.574,16.174,-36.011
1.011,-0.262,-0.104,26.123,13.794,-32.166
1.045,-0.323,-0.045,26.184,13.977,-27.344
1.083,-0.382,0.000,24.963,14.832,-21.362
1.124,-0.412,0.050,22.766,14.771,-13.123
1.140,-0.446,0.085,20.142,15.503,-4.211
1.146,-0.421,0.075,15.747,15.442,4.456
1.137,-0.334,-0.049,6.836,9.521,14.404
1.088,-0.214,-0.053,7.324,5.005,12.939
1.092,-0.232,-0.068,9.949,1.892,10.315
1.089,-0.224,-0.044,12.573,-0.671,10.925
1.078,-0.170,0.019,13.672,-3.601,14.587
1.051,-0.113,0.041,11.841,-5.310,17.456
1.025,-0.050,0.039,9.888,-5.005,20.325
0.983,0.013,0.051,8.545,-4.822,23.499
0.937,0.070,0.089,7.751,-4.211,25.940
0.906,0.126,0.129,4.822,-3.845,26.917
0.899,0.178,0.119,-0.610,-2.380,25.391
0.880,0.199,0.074,-5.249,0.854,22.095
0.900,0.201,-0.042,-6.409,4.395,17.822
0.907,0.159,-0.060,-3.906,3.113,13.000
0.932,0.197,-0.062,2.319,3.296,12.085
0.941,0.187,-0.115,8.240,6.897,8.545
0.948,0.092,-0.095,15.930,6.042,2.197
0.971,0.027,-0.012,21.729,3.662,0.183
0.986,-0.035,0.040,22.949,3.113,-1.160
1.001,-0.113,0.049,18.005,-14.160,0.549
0.996,-0.063,0.104,-2.136,-9.033,7.751
0.935,0.078,0.143,-13.916,-13.062,14.343
0.886,0.231,0.155,-21.301,-14.160,15.686
0.871,0.316,0.178,-23.315,-12.817,10.681
0.902,0.257,0.163,-19.592,-7.812,0.916
0.959,0.125,0.097,-13.306,-1.770,-7.507
1.006,0.024,0.027,-6.653,3.723,-10.376
1.027,-0.033,0.021,-1.038,4.456,-8.179
1.034,-0.087,0.085,3.906,2.808,-4.456
1.026,-0.108,0.143,4.944,1.648,0.122
0.998,-0.036,0.133,-0.977,2.441,7.263
0.962,0.064,0.070,-8.301,4.089,12.268
0.947,0.123,0.013,-11.658,2.136,5.920
1.011,0.057,-0.021,-4.150,1.831,0.488
1.042,-0.000,-0.001,1.099,1.892,-1.831
1.050,-0.030,0.050,4.211,0.427,-1.038
1.032,-0.026,0.091,3.540,-0.916,2.136
1.002,0.013,0.122,1.282,-1.404,5.920
0.978,0.060,0.133,-1.526,-2.014,8.545
0.958,0.105,0.122,-3.845,-2.075,8.911
0.946,0.146,0.082,-5.066,-0.671,7.568
0.955,0.151,0.023,-3.906,1.343,4.944
0.979,0.145,0.007,-0.427,1.160,1.709
0.991,0.122,0.051,3.418,-0.244,-0.793
0.995,0.079,0.090,5.005,0.183,-2.014
1.003,0.051,0.106,4.150,1.526,-1.953
1.000,0.054,0.096,1.526,2.380,-0.671
0.984,0.090,0.072,-3.906,3.601,1.221
0.981,0.065,-0.001,-1.953,4.517,-0.183
0.994,0.048,-0.022,1.221,4.700,0.244
0.991,0.061,-0.018,3.601,4.150,1.831
0.981,0.102,0.020,4.150,2.258,3.723
0.978,0.122,0.066,3.357,0.061,3.479
0.967,0.122,0.092,1.526,-1.221,1.526
0.967,0.125,0.081,0.122,-1.099,-0.061
0.968,0.131,0.054,0.549,0.000,-1.221
0.973,0.119,0.041,2.014,0.427,-2.563
0.983,0.094,0.036,5.127,0.671,-4.211
0.996,0.062,0.044,7.141,0.732,-5.188
1.005,0.023,0.052,7.935,0.244,-5.615
1.010,-0.001,0.060,7.446,-0.488,-4.639
1.009,0.008,0.073,6.409,-1.099,-2.686
1.000,0.038,0.081,4.089,-2.319,-1.404
0.983,0.074,0.069,1.587,-2.991,-0.916
0.970,0.092,0.035,0.916,-2.686,-1.709
0.977,0.087,-0.002,2.380,-2.136,-3.357
0.999,0.057,-0.020,5.737,-2.258,-5.798
1.009,0.020,-0.005,10.315,-2.686,-6.592
1.021,-0.009,0.028,14.282,-2.930,-5.737
2.281,-0.367,-0.188,37.964,6.104,-91.736
2.356,-0.559,-0.049,33.691,3.113,-88.440
2.372,-0.715,0.057,20.874,2.625,-75.317
2.318,-0.783,0.078,3.723,4.822,-54.810
2.239,-0.740,0.011,-14.404,6.897,-31.250
2.167,-0.593,-0.141,-32.532,5.066,-10.803
2.087,-0.451,-0.327,-47.852,-2.991,0.854
2.021,-0.322,-0.433,-59.509,-15.442,5.615
2.000,-0.220,-0.437,-63.599,-26.428,7.568
2.006,-0.239,-0.329,-56.030,-29.480,5.554
1.997,-0.331,-0.226,-38.330,-25.208,-1.099
1.944,-0.520,-0.022,-33.691,-23.376,-10.681
1.849,-0.709,0.031,-45.776,-19.775,-12.207
1.672,-0.736,-0.113,-64.819,-15.015,-5.798
1.468,-0.581,-0.273,-93.201,-20.447,-4.333
1.038,-0.412,-0.487,-143.982,-47.302,-16.663
0.812,-0.444,-0.603,-147.949,-48.706,-27.893
0.561,-0.411,-0.687,-139.709,-37.720,-26.428
0.423,-0.284,-0.763,-110.046,-21.790,-12.024
0.396,-0.216,-0.686,-65.979,-16.663,4.578
0.441,-0.254,-0.507,-25.391,-24.414,14.771
0.320,-0.365,-0.333,-7.874,-33.752,19.226
0.182,-0.340,-0.190,-4.028,-37.170,29.419
0.117,-0.201,-0.053,-0.671,-37.964,50.964
0.017,-0.064,0.080,3.906,-39.917,74.097
0.023,0.053,0.195,16.663,-43.762,86.365
0.045,0.123,0.309,41.321,-45.837,85.693
0.076,0.181,0.409,72.876,-42.542,80.566
0.162,0.307,0.509,109.802,-35.217,78.003
0.255,0.369,0.635,145.447,-25.330,74.463
0.343,0.259,0.622,176.514,-8.789,65.125
0.325,0.029,0.516,198.120,10.681,57.556
0.309,-0.068,0.524,212.585,20.691,77.393
0.398,-0.125,0.774,226.013,14.893,70.923
0.412,-0.277,0.877,230.103,15.381,69.153
0.432,-0.351,1.019,235.291,19.409,73.242
0.471,-0.350,1.173,239.929,28.503,84.656
0.514,-0.363,1.222,240.356,39.551,93.750
0.541,-0.322,1.198,229.065,45.898,98.755
0.516,-0.225,1.270,205.872,38.269,100.830
0.462,-0.137,1.456,171.692,20.142,106.018
0.406,0.155,1.612,123.169,9.644,118.530
0.276,0.555,1.528,64.758,21.545,129.883
0.168,0.930,1.025,13.123,55.664,132.385
0.037,1.264,0.365,-22.461,88.684,125.977
-0.005,1.526,-0.144,-38.574,99.854,108.887
0.007,1.631,-0.406,-38.635,89.783,79.529
0.057,1.556,-0.467,-31.799,74.951,43.945
0.147,1.359,-0.555,-18.860,69.153,8.911
0.230,1.090,-0.676,-0.244,68.848,-20.691
0.313,0.870,-0.659,18.555,64.636,-42.786
0.431,0.617,-0.545,48.401,50.293,-76.538
0.634,0.157,-0.270,51.270,49.805,-83.313
0.717,-0.035,-0.249,49.072,54.138,-85.022
0.800,-0.227,-0.293,46.265,57.556,-83.008
0.835,-0.350,-0.332,41.504,56.274,-75.867
0.827,-0.345,-0.327,27.161,51.270,-62.500
0.829,-0.338,-0.409,8.972,48.645,-48.279
0.805,-0.260,-0.528,-8.850,43.152,-34.119
0.786,-0.097,-0.614,-27.405,31.799,-20.203
0.768,0.027,-0.633,-39.307,7.568,-12.085
0.798,0.003,-0.487,-36.682,0.488,-13.428
0.800,-0.011,-0.367,-31.372,-2.197,-13.184
0.804,-0.058,-0.344,-27.222,0.122,-12.451
0.858,-0.178,-0.404,-16.602,5.920,-14.221
0.910,-0.276,-0.473,-5.310,8.423,-13.489
0.931,-0.275,-0.525,0.427,7.629,-8.789
0.915,-0.186,-0.536,2.625,3.235,-3.418
0.880,-0.075,-0.477,4.150,-2.747,-1.831
0.860,0.002,-0.372,5.188,-8.484,-3.052
0.874,0.008,-0.302,6.042,-11.658,-7.690
0.873,-0.015,-0.253,2.991,-12.878,-11.353
0.860,0.003,-0.251,-10.193,-14.709,-13.611
0.890,-0.054,-0.291,-11.536,-15.320,-16.724
0.938,-0.114,-0.314,-11.841,-17.273,-17.822
0.973,-0.152,-0.289,-8.850,-20.935,-15.686
0.981,-0.142,-0.211,-5.432,-25.513,-11.047
0.997,-0.140,-0.116,-2.136,-27.222,-1.709
0.995,-0.137,-0.031,-6.470,-24.353,4.089
0.958,-0.069,-0.038,-14.160,-20.874,11.292
0.925,0.033,-0.067,-21.606,-16.968,17.273
0.926,0.049,-0.113,-23.071,-13.123,17.395
0.963,-0.039,-0.137,-1.465,-12.634,9.521
1.030,-0.263,-0.081,-12.146,-13.123,12.512
1.038,-0.292,-0.080,-15.991,-11.536,21.545
1.033,-0.220,-0.087,-21.118,-11.414,33.508
0.976,-0.063,-0.077,-28.809,-14.709,44.189
0.906,0.109,-0.016,-32.898,-20.325,50.293
0.840,0.254,0.082,-31.677,-25.269,51.147
0.774,0.410,0.165,-31.250,-25.696,47.546
0.782,0.537,0.203,-30.762,-17.517,38.818
0.837,0.324,0.144,-20.630,-2.380,17.517
0.938,-0.093,0.017,-4.578,11.475,-4.333
1.024,-0.392,-0.057,1.465,14.709,-8.301
1.075,-0.544,-0.124,-1.770,10.803,3.357
1.078,-0.509,-0.207,-10.254,3.540,22.156
0.990,-0.367,-0.253,-23.315,-8.301,41.748
0.883,-0.163,-0.205,-31.250,-23.743,59.021
0.808,0.078,-0.106,-27.832,-39.185,70.801
0.783,0.339,-0.025,-22.400,-51.147,74.463
0.761,0.521,0.042,-23.987,-55.786,67.627
0.770,0.566,0.125,-21.667,-53.345,52.795
0.799,0.518,0.163,-13.062,-43.945,36.133
0.820,0.400,0.240,-5.798,-31.128,21.362
0.853,0.283,0.238,12.512,-9.155,5.676
0.997,-0.022,0.138,5.127,-14.221,2.197
1.074,-0.080,0.010,-11.230,-19.470,3.723
1.067,0.020,-0.073,-26.062,-24.902,12.085
1.037,0.237,-0.127,-34.546,-24.841,20.508
0.962,0.442,-0.192,-28.381,-14.954,22.156
0.901,0.602,-0.185,0.732,-5.920,17.395
0.900,0.686,-0.056,39.307,2.563,8.118
0.944,0.570,0.152,73.486,12.573,-6.165
1.020,0.253,0.218,85.266,24.475,-23.376
1.135,-0.057,0.151,64.148,32.104,-33.142
1.179,-0.195,-0.007,26.794,30.640,-28.137
1.163,-0.066,-0.161,-9.521,23.254,-10.315
1.105,0.151,-0.262,-33.936,12.329,7.080
1.064,0.289,-0.226,-41.016,-0.366,13.306
-0.725,-0.353,2.303,217.102,-121.155,164.062
-0.725,0.251,2.990,156.677,-114.502,176.880
-0.551,0.855,2.895,66.406,-64.880,176.270
-0.440,1.176,2.062,-27.222,4.395,160.583
-0.415,1.350,1.043,-95.886,60.120,137.024
-0.396,1.519,0.237,-129.761,84.839,111.755
-0.346,1.658,-0.331,-136.841,88.318,82.092
-0.284,1.714,-0.759,-119.629,88.318,48.157
-0.200,1.621,-1.086,-80.017,87.708,11.780
-0.115,1.427,-1.214,-35.095,82.642,-25.757
0.045,1.017,-1.055,9.094,66.956,-66.284
0.234,0.456,-0.718,42.358,48.706,-103.821
0.467,-0.076,-0.478,60.974,42.175,-127.014
0.680,-0.513,-0.452,65.979,47.729,-132.141
0.872,-0.840,-0.523,63.721,53.833,-123.230
1.024,-1.017,-0.589,59.509,51.941,-104.309
1.091,-1.024,-0.609,54.260,44.739,-79.346
1.098,-0.869,-0.565,48.279,34.851,-53.223
1.072,-0.630,-0.523,40.527,25.024,-32.837
1.040,-0.424,-0.464,32.410,16.052,-21.423
1.037,-0.324,-0.370,25.391,7.935,-17.273
1.055,-0.357,-0.238,20.142,1.892,-16.357
1.063,-0.395,-0.054,12.878,-3.418,-12.573
1.090,-0.410,0.081,-0.305,-6.104,-5.310
1.124,-0.442,0.098,-13.306,-3.540,1.953
1.130,-0.394,-0.009,-22.034,2.747,10.925
1.106,-0.276,-0.146,-21.362,10.071,24.658
1.027,-0.093,-0.369,-9.216,11.475,26.001
1.012,-0.059,-0.353,5.615,6.897,23.987
0.992,-0.023,-0.229,15.930,-1.343,21.912
0.978,-0.016,-0.087,23.499,-6.592,19.531
0.968,-0.023,0.060,26.245,-10.437,17.273
0.944,0.030,0.167,20.142,-11.169,18.188
0.913,0.130,0.145,8.789,-7.141,20.813
0.889,0.215,0.036,-3.662,-2.747,20.203
0.881,0.222,-0.110,-13.550,-1.343,15.015
0.893,0.170,-0.257,-16.418,-1.465,8.057
0.903,0.114,-0.342,-12.268,-2.502,2.991
0.921,0.092,-0.361,-3.540,-5.066,0.366
0.941,0.048,-0.322,7.324,-8.850,-1.404
0.973,0.005,-0.199,18.433,-13.550,-0.122
0.989,-0.011,0.086,20.752,-20.813,2.747
0.961,0.035,0.146,12.146,-19.775,6.470
0.937,0.117,0.160,1.770,-17.456,8.667
0.938,0.159,0.096,-6.287,-12.573,6.348
0.957,0.117,-0.024,-7.446,-6.653,-0.122
0.988,0.020,-0.105,-0.427,-3.052,-6.104
1.022,-0.082,-0.112,9.827,-2.563,-9.460
1.044,-0.147,-0.059,16.785,-3.845,-8.545
1.056,-0.175,0.007,19.287,-5.005,-4.333
1.052,-0.198,0.052,15.808,-5.493,0.977
1.052,-0.205,0.085,8.301,-7.812,8.057
1.026,-0.166,0.099,-2.747,-12.756,16.479
0.975,-0.027,0.109,-14.954,-16.724,25.940
0.917,0.164,0.116,-25.391,-18.860,29.785
0.898,0.254,0.023,-28.870,-11.108,21.606
0.905,0.194,0.000,-20.081,-5.798,14.038
0.922,0.120,0.007,-11.108,-2.319,9.094
0.935,0.016,0.051,-3.479,-1.282,5.859
0.932,-0.064,0.086,1.343,-0.793,6.042
0.919,-0.073,0.092,2.563,1.099,11.169
0.926,-0.022,0.061,1.709,2.380,18.188
0.933,0.030,-0.004,-1.343,1.404,23.743
0.922,0.072,-0.107,-11.169,-2.747,26.794
0.886,0.144,-0.146,-25.146,-12.817,29.053
0.841,0.254,-0.068,-36.804,-28.015,29.907
0.803,0.331,0.085,-44.067,-39.246,27.222
0.762,0.326,0.224,-44.189,-39.978,21.667
0.723,0.280,0.290,-38.757,-31.677,15.869
0.699,0.269,0.278,-30.212,-20.386,11.597
0.683,0.354,0.268,-18.127,-10.681,8.057
0.682,0.490,0.293,-0.305,-2.563,2.136
0.729,0.609,0.278,20.447,9.949,-8.606
0.782,0.611,0.221,38.696,27.527,-24.109
0.819,0.417,0.006,44.983,45.776,-40.527
0.873,0.149,-0.230,41.016,54.443,-50.049
0.893,-0.040,-0.321,29.968,46.204,-49.683
0.880,-0.118,-0.270,14.709,28.931,-43.091
0.839,-0.129,-0.151,0.854,13.367,-33.997
0.780,-0.148,-0.010,-8.850,2.563,-26.672
0.808,-0.067,0.085,-14.526,-3.479,-19.409
0.888,0.074,0.131,-18.616,-6.104,-13.916
0.960,0.334,0.128,-23.682,-3.418,-27.649
0.983,0.500,0.129,-23.132,7.568,-17.395
0.979,0.463,0.000,-15.076,27.039,-31.494
1.010,-0.003,-0.455,9.766,51.941,-54.077
1.014,-0.231,-0.445,10.010,39.612,-53.467
1.016,-0.411,-0.349,4.089,21.057,-47.302
1.009,-0.522,-0.250,-7.812,4.333,-35.645
1.059,-0.464,-0.130,-21.667,-11.475,-20.752
1.091,-0.220,0.013,-35.706,-22.400,-6.104
1.108,0.075,0.085,-42.175,-20.142,2.380
1.117,0.263,0.042,-36.255,-6.714,1.099
1.117,0.264,-0.059,-24.414,8.545,-8.301
1.102,0.141,-0.221,-10.681,23.254,-19.226
1.088,-0.035,-0.319,2.991,28.687,-26.489
1.080,-0.196,-0.298,9.888,22.461,-28.198
1.071,-0.341,-0.215,5.066,10.864,-24.475
1.058,-0.382,-0.149,-8.362,0.000,-15.503
1.036,-0.311,-0.087,-25.391,-8.240,-3.418
1.046,-0.137,-0.043,-37.842,-13.550,7.385
1.084,0.197,-0.022,-32.837,-7.690,10.376
1.079,0.199,-0.049,-19.409,1.282,3.540
1.059,0.110,-0.160,-5.371,12.146,-3.784
1.034,0.082,-0.213,3.235,16.235,-5.676
1.008,0.068,-0.201,4.639,13.123,-5.615
0.982,0.041,-0.173,2.014,7.690,-6.348
0.952,0.063,-0.113,-5.005,2.075,-6.104
0.928,0.040,-0.056,-10.864,-0.671,-7.019
0.955,-0.014,-0.046,-11.536,1.160,-10.254
0.996,-0.074,-0.083,-8.057,3.540,-12.939
1.047,-0.103,-0.123,-5.615,5.188,-12.939
1.069,-0.091,-0.162,-3.723,6.226,-10.193
1.059,-0.020,-0.176,-0.732,6.531,-6.775
1.049,0.042,-0.134,3.235,4.883,-5.432
1.045,0.041,-0.099,7.629,3.906,-7.996
1.056,-0.032,-0.115,8.118,4.578,-11.780
1.057,-0.116,-0.151,1.404,3.479,-13.306
1.056,-0.154,-0.202,-9.949,-0.305,-11.475
2.191,-0.089,0.597,27.893,-12.817,-91.248
2.391,-0.379,0.690,40.039,10.437,-99.243
2.519,-0.722,0.650,38.147,35.767,-90.454
2.533,-0.996,0.496,20.813,52.734,-61.279
2.410,-1.122,0.301,-7.385,51.758,-18.738
2.157,-0.994,0.121,-33.325,30.640,25.024
1.823,-0.691,0.023,-57.617,-1.648,59.326
1.504,-0.432,0.037,-78.064,-32.166,73.669
1.229,-0.326,0.070,-86.304,-45.776,73.120
0.966,-0.288,0.062,-84.656,-38.635,74.158
0.731,-0.244,-0.009,-79.468,-17.639,83.313
0.535,-0.091,-0.100,-71.960,6.653,96.619
0.487,0.038,-0.216,-63.232,29.297,106.262
0.612,0.001,-0.399,-44.678,47.363,102.539
0.704,-0.065,-0.507,-22.400,53.589,79.651
0.552,-0.425,-0.436,-11.230,44.312,41.748
0.283,-0.794,-0.261,-10.010,26.611,19.714
-0.165,-0.938,-0.114,-17.151,11.475,33.081
-0.590,-0.666,0.041,-23.499,1.282,83.862
-0.785,0.126,0.312,-16.296,-6.226,147.217
-0.821,0.904,0.563,-1.343,-4.761,172.729
-0.719,1.056,0.720,29.541,10.681,139.038
-0.494,0.580,0.623,69.397,39.673,76.416
-0.260,-0.085,0.582,104.858,61.646,27.710
-0.064,-0.500,0.624,135.742,68.054,9.399
-0.106,-0.671,0.786,150.024,61.462,5.615
-0.213,-0.751,1.133,147.583,43.579,15.259
-0.232,-0.463,1.480,127.319,27.222,47.852
-0.256,0.068,1.731,85.938,20.569,86.243
-0.288,0.593,1.609,0.244,55.054,127.014
-0.315,1.514,0.817,-26.855,69.885,117.737
-0.265,1.637,0.592,-44.189,73.059,91.064
-0.178,1.700,0.316,-54.993,77.393,64.026
-0.212,1.691,-0.040,-56.824,92.407,40.161
-0.208,1.724,-0.453,-47.729,109.375,15.625
-0.098,1.342,-0.865,-25.391,114.868,-22.644
0.088,0.671,-0.933,2.014,101.074,-65.552
0.284,0.051,-0.750,23.865,77.759,-89.233
0.503,-0.378,-0.491,38.025,60.364,-93.323
0.662,-0.594,-0.413,40.100,52.307,-83.923
0.697,-0.557,-0.384,30.334,46.936,-67.810
0.732,-0.363,-0.272,15.930,36.316,-56.824
0.718,-0.139,-0.229,-4.333,26.672,-49.805
0.652,0.043,-0.389,-16.907,28.687,-47.363
0.620,0.120,-0.493,-18.250,31.189,-51.941
0.696,-0.288,-0.451,-12.329,23.743,-68.420
0.917,-0.530,-0.407,-7.080,23.987,-64.087
1.017,-0.667,-0.368,-4.333,22.888,-50.537
1.041,-0.613,-0.351,-8.240,21.240,-29.602
1.008,-0.457,-0.324,-11.963,18.188,-9.033
0.985,-0.327,-0.278,-15.015,13.306,1.709
0.954,-0.311,-0.303,-15.564,11.536,0.977
0.961,-0.268,-0.360,-15.747,8.728,-3.296
0.981,-0.278,-0.300,-14.038,1.160,-8.911
1.007,-0.267,-0.250,-8.179,-2.869,-12.146
1.034,-0.380,-0.134,11.414,-0.732,-13.550
1.054,-0.380,-0.147,15.015,2.502,-6.165
1.043,-0.383,-0.143,7.996,1.404,4.333
1.019,-0.262,-0.142,-4.517,-1.404,17.090
0.982,-0.047,-0.144,-14.343,-3.540,27.222
0.912,0.142,-0.115,-19.836,-4.822,27.344
0.934,0.112,-0.001,-19.287,-7.874,15.076
0.958,0.072,-0.045,-15.259,-3.174,5.005
0.954,-0.081,-0.140,-7.996,2.686,-3.296
0.982,-0.185,-0.167,-1.587,0.977,-6.226
0.987,-0.193,-0.256,2.075,-1.282,-2.747
0.975,-0.161,-0.233,4.211,-6.897,2.808
0.978,-0.062,-0.111,4.089,-13.855,10.925
0.961,0.017,-0.008,2.747,-16.785,16.785
0.939,0.121,0.042,1.587,-15.869,20.325
0.946,0.156,0.029,3.174,-12.207,18.494
0.980,0.022,0.006,8.728,-8.118,9.644
1.032,-0.171,-0.019,15.747,-3.906,2.563
1.058,-0.329,-0.038,17.578,-2.075,2.869
1.062,-0.407,-0.036,4.944,-7.935,22.461
1.000,-0.273,0.030,-5.371,-15.381,35.522
0.955,-0.155,0.029,-17.029,-22.888,47.241
0.884,0.007,-0.046,-29.297,-31.555,57.556
0.788,0.238,-0.081,-40.833,-45.166,66.284
0.676,0.591,0.005,-52.185,-59.937,70.740
0.559,0.931,0.181,-57.068,-60.730,65.674
0.585,0.946,0.071,-43.945,-39.490,42.542
0.708,0.501,0.034,-15.625,-22.034,5.920
0.927,-0.125,-0.092,24.963,0.732,-24.170
1.102,-0.605,-0.232,66.162,22.217,-29.541
1.202,-0.886,-0.329,71.228,8.728,15.320
1.141,-0.605,-0.300,34.668,-21.729,48.950
0.928,-0.119,-0.088,-8.911,-55.481,75.928
0.702,0.446,0.316,-37.292,-81.421,87.891
0.594,1.040,0.621,-50.903,-81.909,85.510
0.576,1.402,0.736,-52.124,-56.885,62.439
0.624,1.310,0.664,-41.443,-20.996,22.888
0.760,0.800,0.431,-23.010,13.611,-15.686
0.947,0.188,0.197,-7.874,35.645,-38.757
1.093,-0.251,-0.105,-5.920,41.687,-34.912
1.159,-0.346,-0.244,-15.686,29.480,-17.700
1.126,-0.199,-0.323,-32.898,9.460,0.732
0.954,0.269,-0.256,-45.776,-9.399,19.714
0.828,0.715,0.021,-49.011,-22.583,6.531
0.758,0.796,0.304,-20.386,-0.305,-23.987
0.866,0.535,0.060,1.160,27.344,-47.974
0.961,0.280,-0.234,14.893,46.875,-61.218
1.056,0.014,-0.439,18.555,50.232,-63.354
1.184,-0.295,-0.574,16.907,39.856,-60.730
1.215,-0.395,-0.519,7.629,19.531,-48.889
1.179,-0.256,-0.331,-3.418,-2.014,-28.381
1.106,-0.017,-0.143,-12.878,-14.404,-11.047
1.048,0.156,-0.076,-17.700,-14.954,-6.897
1.010,0.192,-0.103,-16.602,-10.437,-12.817
0.986,0.195,-0.136,-15.259,-7.202,-17.517
0.975,0.224,-0.132,-16.724,-6.714,-18.250
0.943,0.304,-0.135,-19.104,-8.057,-16.602
0.912,0.380,-0.097,-15.930,-9.521,-17.334
0.962,0.232,0.081,12.695,-4.211,-29.114
1.019,0.156,0.106,19.104,0.793,-33.813
1.066,0.026,0.079,14.648,4.028,-37.231
1.106,-0.090,0.007,7.812,5.859,-35.645
1.082,-0.057,-0.064,-0.183,6.165,-27.588
1.018,0.080,-0.008,-6.592,2.686,-18.127
2.133,-0.010,0.564,-3.479,-36.926,-63.477
2.211,-0.104,0.590,-4.761,-24.353,-69.641
2.269,-0.219,0.579,-10.254,-10.132,-68.909
2.292,-0.281,0.579,-17.761,0.183,-59.509
2.264,-0.287,0.560,-21.973,9.766,-45.532
2.216,-0.251,0.517,-21.545,18.860,-31.067
2.217,-0.261,0.500,-17.761,25.940,-18.982
2.147,-0.260,0.468,-14.160,33.936,-8.423
1.916,-0.090,0.368,-1.221,39.001,15.686
1.885,-0.059,0.480,-0.793,32.715,17.700
1.843,-0.053,0.624,-9.766,38.086,10.559
1.796,-0.104,0.551,-16.663,59.875,1.892
1.761,-0.136,0.292,-23.682,81.116,0.366
1.685,-0.181,0.004,-35.217,52.002,20.325
1.573,0.178,-0.051,-64.392,18.311,30.701
1.549,0.306,0.029,-79.895,-2.991,18.860
1.417,0.309,0.072,-89.417,-5.554,2.502
1.239,0.410,0.133,-90.454,1.282,2.136
1.098,0.573,0.149,-60.730,39.978,4.211
1.018,0.538,-0.295,-37.354,59.204,-7.812
1.024,0.327,-0.523,-14.771,68.726,-18.555
1.051,0.060,-0.603,3.174,66.528,-25.085
1.091,-0.209,-0.628,19.470,59.448,-27.161
1.089,-0.478,-0.720,32.959,54.321,-21.606
0.948,-0.604,-0.824,34.607,45.532,-7.812
0.737,-0.604,-0.859,26.184,24.475,9.949
0.503,-0.605,-0.743,13.611,-3.052,25.330
0.187,-0.610,-0.536,8.423,-26.184,40.833
-0.105,-0.539,-0.371,11.902,-40.100,57.434
-0.364,-0.597,-0.127,30.518,-50.964,67.688
-0.454,-0.766,0.364,71.411,-62.378,71.411
-0.467,-0.908,0.889,156.006,-28.381,98.938
-0.719,-0.687,0.690,178.467,9.827,127.991
-0.895,-0.354,0.501,192.810,19.897,154.297
-0.993,-0.047,0.557,201.843,3.052,166.504
-1.026,0.197,0.817,208.679,-20.508,165.833
-0.955,0.439,1.239,209.351,-41.809,155.884
-0.795,0.543,1.600,194.458,-53.162,137.268
-0.561,0.695,1.724,151.978,-46.570,121.094
-0.463,0.958,1.508,96.619,-21.240,106.812
-0.298,1.574,0.492,19.348,46.082,92.041
-0.329,1.874,0.038,-1.343,69.763,68.237
-0.346,2.092,-0.372,-9.644,87.280,31.494
-0.281,1.934,-0.651,-0.244,96.741,-20.813
-0.098,1.328,-0.758,17.151,96.191,-83.191
0.150,0.491,-0.786,34.180,93.140,-135.742
0.443,-0.319,-0.787,44.739,85.999,-161.682
0.696,-0.834,-0.749,48.401,74.707,-159.363
0.873,-1.016,-0.658,53.894,61.279,-138.306
0.938,-0.967,-0.572,54.993,46.753,-109.131
0.917,-0.735,-0.544,42.786,14.343,-59.448
0.901,-0.139,-0.291,4.883,-2.930,-50.354
0.918,-0.078,-0.242,-11.658,-7.446,-52.429
0.920,-0.121,-0.197,-22.217,-6.042,-58.044
0.976,-0.271,-0.137,-23.437,-2.930,-62.683
1.065,-0.514,-0.044,-17.456,0.427,-64.575
1.131,-0.664,-0.075,-7.080,9.338,-56.335
1.128,-0.638,-0.110,3.540,16.968,-39.673
1.117,-0.525,-0.104,8.545,16.541,-23.865
1.116,-0.482,-0.108,6.409,10.193,-16.052
1.103,-0.430,-0.087,-1.953,-0.122,-11.780
1.048,-0.252,0.061,-11.169,-11.230,-6.042
0.982,-0.052,0.069,-18.250,-13.855,-3.723
0.942,0.008,0.055,-18.677,-12.939,-7.935
0.942,0.009,0.088,-12.085,-10.986,-13.489
0.964,-0.047,0.068,-2.502,-5.798,-17.700
0.978,-0.109,0.026,3.723,-1.282,-18.494
0.990,-0.129,0.055,6.409,-0.488,-15.930
1.001,-0.143,0.104,3.479,-1.099,-11.108
1.005,-0.137,0.052,-4.272,0.244,-4.761
0.970,-0.054,0.040,-12.085,0.488,2.625
0.926,0.026,0.050,-14.038,-0.610,8.057
0.872,0.130,0.029,-12.695,-0.244,6.348
0.884,0.085,0.104,-6.104,-1.465,2.747
0.884,0.032,0.089,-6.409,0.793,2.563
0.904,-0.051,0.091,-7.812,-0.183,2.747
0.923,-0.106,0.074,-11.169,-1.343,4.272
0.930,-0.116,0.011,-16.174,-1.465,6.531
0.934,-0.037,-0.052,-21.240,-2.625,11.230
0.927,0.054,-0.071,-22.278,-5.310,13.611
0.902,0.123,-0.043,-18.372,-8.545,11.658
0.848,0.208,0.016,-12.817,-9.888,7.568
0.833,0.227,0.072,-10.071,-8.118,0.427
0.875,0.006,0.053,-11.353,-4.822,-10.193
0.942,-0.261,0.052,-11.902,-4.150,-17.212
0.984,-0.416,0.079,-12.207,-6.104,-14.282
1.034,-0.429,0.165,-18.677,-13.672,4.089
1.041,-0.304,0.172,-21.729,-14.404,16.479
0.982,-0.093,0.148,-20.752,-13.428,27.344
0.904,0.123,0.123,-12.573,-13.062,31.494
0.832,0.332,0.199,2.319,-12.451,28.320
0.828,0.448,0.368,16.174,-7.996,19.531
0.852,0.309,0.299,16.357,2.319,5.249
0.855,0.174,0.150,-4.761,8.057,-3.662
0.873,0.115,0.152,-31.067,1.465,-6.531
0.912,0.061,0.194,-46.021,-4.456,-9.155
0.923,0.053,0.176,-48.584,-3.357,-10.559
0.916,0.114,0.102,-39.795,2.991,-9.949
0.903,0.225,0.041,-18.799,10.620,-11.414
0.889,0.315,0.072,12.634,18.127,-17.639
0.896,0.331,0.183,49.194,28.870,-25.513
0.932,0.139,0.085,69.397,39.856,-34.912
0.951,-0.045,-0.003,55.542,36.804,-39.551
0.947,-0.027,0.029,24.597,21.057,-32.104
0.914,0.094,0.060,-6.836,8.545,-24.353
0.902,0.069,0.057,-29.297,7.507,-30.823
0.954,-0.072,0.098,-23.987,14.221,-35.217
1.052,-0.176,-0.026,-18.188,27.100,-31.921
1.094,-0.311,-0.109,-15.137,33.691,-26.550
1.126,-0.288,-0.273,-13.916,37.048,-15.503
1.082,-0.172,-0.360,-12.451,30.762,-5.615
1.068,-0.011,-0.277,-11.169,15.808,-2.869
1.027,0.071,-0.220,-13.306,4.272,-5.920
1.008,0.063,-0.149,-17.334,-2.747,-12.817
1.013,-0.002,-0.115,-21.057,-5.432,-18.433
1.024,-0.072,-0.093,-22.461,-6.104,-21.851
1.065,-0.126,-0.084,-20.325,-5.371,-22.522
1.099,-0.166,-0.084,-15.808,-5.066,-21.973
1.114,-0.149,-0.124,-10.315,-2.991,-13.428
-0.135,-0.405,1.970,168.213,-93.384,85.938
-0.075,-0.087,1.865,140.320,-60.913,99.060
-0.057,0.251,1.568,110.413,-26.978,108.398
-0.025,0.618,1.252,80.078,-3.784,109.436
0.000,0.866,1.009,48.401,9.094,101.196
0.071,1.114,0.767,12.756,19.165,90.515
-0.024,1.373,0.536,-17.944,32.104,76.355
-0.098,1.647,0.221,-35.522,53.101,52.429
-0.012,1.546,-0.122,-30.579,75.256,9.277
0.094,1.109,-0.320,-8.423,89.966,-41.321
0.280,0.593,-0.398,16.785,98.755,-79.468
0.463,0.089,-0.490,33.813,100.769,-102.295
0.617,-0.272,-0.577,36.438,95.581,-109.009
0.730,-0.505,-0.647,28.931,81.116,-104.492
0.817,-0.528,-0.658,19.348,63.171,-89.966
0.859,-0.434,-0.563,17.212,45.837,-73.914
0.883,-0.376,-0.427,22.705,34.241,-63.293
0.869,-0.285,-0.380,27.954,32.471,-54.626
0.855,-0.230,-0.352,29.236,33.813,-47.119
0.863,-0.252,-0.289,22.888,31.006,-43.213
0.912,-0.306,-0.253,10.620,25.818,-40.649
0.951,-0.334,-0.227,-2.869,21.851,-35.461
0.979,-0.357,-0.243,-10.010,20.386,-29.114
1.030,-0.388,-0.241,-12.939,17.212,-23.682
1.074,-0.417,-0.222,-8.850,13.733,-17.944
1.053,-0.362,-0.180,-2.380,12.695,-9.949
1.017,-0.258,-0.150,2.686,12.817,-2.686
0.981,-0.176,-0.136,2.808,10.559,0.793
0.934,-0.136,-0.163,-1.953,7.568,1.160
0.909,-0.109,-0.168,-11.230,-5.066,-7.141
0.954,-0.137,-0.161,-11.841,-9.705,-11.597
0.954,-0.114,-0.165,-10.193,-9.277,-11.230
0.957,-0.095,-0.109,-5.737,-9.277,-9.460
0.967,-0.066,-0.061,-0.793,-8.484,-6.775
0.965,-0.026,-0.084,2.625,-4.211,-2.991
0.964,-0.042,-0.062,4.761,-2.686,-0.916
0.988,-0.061,-0.004,3.479,-3.784,0.732
0.985,-0.083,0.017,0.488,-3.113,1.770
0.972,-0.085,0.043,-3.601,-2.930,2.930
0.946,-0.082,0.032,-9.277,-3.052,3.296
0.920,-0.066,-0.049,-14.282,-2.808,3.174
0.936,-0.058,-0.081,-15.564,-4.395,1.160
0.966,-0.058,-0.117,-11.719,-6.042,-1.892
1.004,-0.076,-0.138,7.141,-5.798,-7.141
1.083,-0.179,0.030,17.700,-8.728,-6.897
1.106,-0.216,0.178,22.522,-9.277,-3.662
1.089,-0.220,0.286,18.066,-7.629,0.854
1.059,-0.170,0.324,6.470,-5.737,6.958
1.006,-0.128,0.280,-5.859,-2.625,10.925
0.986,-0.099,0.166,-15.198,1.038,12.268
0.998,-0.140,0.048,-20.020,3.479,11.108
1.008,-0.115,-0.056,-21.240,2.625,13.245
0.989,0.029,-0.122,-18.860,-0.793,10.193
0.989,0.003,-0.030,-9.949,-3.906,4.456
0.997,-0.018,0.054,-1.709,-3.845,0.916
1.005,-0.071,0.070,2.197,-1.465,-0.488
1.008,-0.141,0.065,0.305,-0.366,0.000
0.998,-0.169,0.055,-5.249,-0.916,3.662
0.975,-0.157,0.012,-11.475,-0.671,9.460
0.943,-0.129,-0.052,-16.846,-0.732,15.442
0.907,-0.069,-0.116,-22.644,-2.075,21.301
0.876,0.015,-0.195,-27.466,-3.906,26.123
0.847,0.114,-0.243,-22.888,-11.658,30.823
0.816,0.280,-0.140,-14.771,-16.113,29.419
0.793,0.358,-0.014,-5.859,-18.372,26.978
0.781,0.394,0.119,2.014,-16.846,21.790
0.791,0.368,0.216,6.287,-11.292,13.672
0.818,0.278,0.239,3.235,-3.845,4.456
0.872,0.146,0.211,-4.761,2.441,-3.357
0.931,-0.019,0.173,-11.475,4.822,-9.827
0.982,-0.111,0.173,-17.944,4.150,-10.986
1.004,-0.185,0.224,-23.010,1.587,-9.216
1.026,-0.201,0.238,-27.039,0.732,-5.127
1.002,-0.164,0.190,-31.921,1.099,-0.305
0.946,-0.037,0.163,-37.048,-0.183,4.211
0.909,0.078,0.149,-39.429,-1.221,3.479
0.913,0.119,0.103,-36.621,0.671,-2.930
0.929,0.124,0.034,-30.640,6.409,-10.742
0.932,0.132,-0.015,-22.644,13.428,-17.456
0.964,0.103,-0.060,-10.376,19.775,-24.414
1.012,-0.001,-0.095,3.906,23.254,-32.471
1.052,-0.137,-0.060,16.785,21.851,-37.598
1.081,-0.246,-0.035,24.719,19.104,-36.255
1.092,-0.320,-0.055,22.827,15.015,-29.846
1.064,-0.293,-0.040,13.245,7.935,-20.142
1.006,-0.114,0.026,3.296,1.282,-10.071
0.999,-0.011,-0.032,-2.625,3.723,-7.141
1.017,0.058,-0.100,-3.967,10.681,-11.047
1.042,0.052,-0.193,2.747,18.616,-17.029
1.080,-0.077,-0.273,12.146,25.146,-24.292
1.135,-0.274,-0.373,12.939,21.790,-27.954
1.154,-0.421,-0.385,4.211,6.897,-24.475
1.142,-0.419,-0.250,-6.897,-12.451,-13.611
1.108,-0.381,-0.092,-12.756,-25.024,-3.113
1.079,-0.323,0.047,-10.803,-27.466,4.211
1.063,-0.233,0.130,-7.324,-23.071,10.681
1.052,-0.120,0.090,-8.484,-15.686,14.404
1.053,-0.043,0.031,-10.254,-9.583,16.541
1.004,0.040,-0.064,-9.827,-3.845,17.700
0.988,0.080,-0.065,-6.042,-1.038,14.648
0.984,0.063,-0.059,-0.061,0.244,8.484
0.980,0.024,-0.093,4.944,2.991,4.456
0.963,-0.002,-0.093,6.409,1.953,3.662
0.954,-0.017,-0.036,4.150,-3.784,4.211
0.947,-0.030,0.065,3.723,-8.667,4.700
0.957,-0.050,0.171,4.578,-10.193,5.249
0.990,-0.050,0.216,4.395,-7.690,5.554
1.010,-0.028,0.183,1.282,1.770,5.432
1.007,0.031,0.035,-4.822,2.319,4.822
1.009,0.061,0.025,-6.470,0.732,2.930
1.000,0.053,0.012,-6.409,1.770,0.671
1.000,0.033,0.010,-4.883,3.357,-0.977
0.996,0.008,0.018,-2.380,3.906,-2.869
1.005,-0.054,0.048,0.183,3.174,-4.517
1.011,-0.103,0.035,-0.671,3.296,-4.517
1.024,-0.119,0.058,-3.906,2.075,-2.808
1.037,-0.138,0.058,-9.521,0.977,-0.854
1.030,-0.083,0.031,-16.174,1.953,2.625
1.007,0.032,0.022,-23.193,5.859,2.869
-0.116,-1.250,1.488,278.625,-87.769,63.721
-0.027,-1.176,1.958,244.995,-105.896,90.637
0.006,-1.044,2.438,194.885,-113.159,119.995
0.020,-0.763,2.798,123.840,-107.361,149.841
0.018,-0.331,2.740,42.969,-84.534,177.185
-0.069,0.418,1.972,-42.297,-34.424,206.055
-0.359,1.306,0.917,-114.746,19.104,223.145
-0.533,2.248,0.047,-148.071,58.594,211.426
-0.572,2.715,-0.531,-130.859,85.815,158.142
-0.453,2.479,-0.919,-74.524,104.126,71.533
-0.198,1.841,-1.154,-5.310,117.249,-8.728
0.110,0.957,-1.190,44.312,113.220,-67.383
0.456,0.015,-0.875,73.181,89.111,-102.844
0.750,-0.615,-0.362,76.721,49.133,-79.163
0.837,-0.576,-0.245,35.339,52.673,-48.096
0.790,-0.379,-0.438,22.095,52.246,-32.715
0.798,-0.278,-0.510,21.057,44.495,-30.396
0.829,-0.231,-0.589,22.522,38.696,-31.799
0.852,-0.185,-0.632,20.630,34.363,-31.677
0.874,-0.131,-0.585,13.550,26.428,-29.541
0.904,-0.156,-0.488,4.089,16.968,-27.893
0.921,-0.160,-0.353,-8.545,8.545,-25.146
0.962,-0.162,-0.268,-21.118,4.639,-21.851
1.015,-0.231,-0.220,-21.057,5.859,-16.541
1.019,-0.221,-0.203,-14.587,4.272,-12.634
1.012,-0.208,-0.151,-7.019,1.160,-8.728
1.002,-0.146,-0.181,0.549,0.061,-3.906
0.964,-0.007,-0.198,6.531,-0.916,0.427
0.949,0.138,-0.153,9.888,-4.700,1.038
0.966,0.172,-0.041,9.583,-10.437,-4.822
0.990,0.109,0.038,6.714,-12.146,-13.123
1.006,0.054,0.035,2.869,-9.277,-18.433
1.021,0.009,0.048,-1.587,-7.263,-20.508
1.041,-0.084,0.060,-5.066,-5.188,-21.545
1.032,-0.173,0.073,-7.263,-3.662,-20.081
1.011,-0.139,0.035,-8.850,-1.404,-14.465
1.005,-0.112,-0.072,-7.507,1.892,-10.010
1.001,-0.152,-0.114,-1.526,2.197,-8.667
1.012,-0.133,-0.090,5.249,0.854,-5.554
1.006,-0.104,-0.042,8.545,-0.671,-2.319
0.996,-0.075,0.038,7.568,-2.563,0.244
0.982,-0.039,0.109,-8.118,-3.784,3.357
0.944,0.027,0.036,-14.465,-0.732,0.061
0.966,-0.096,-0.017,-11.902,2.563,-6.775
0.996,-0.200,-0.057,-6.409,4.944,-10.864
1.017,-0.270,-0.116,-0.671,7.507,-10.681
1.031,-0.295,-0.103,4.211,7.263,-7.263
1.037,-0.295,-0.050,6.470,4.150,-2.991
1.028,-0.245,-0.008,4.211,1.282,2.197
0.994,-0.175,0.069,-10.742,-4.150,10.925
0.916,0.025,0.027,-19.104,-3.235,7.568
0.953,-0.100,-0.103,-17.578,1.160,-2.747
1.011,-0.276,-0.171,-10.437,3.723,-10.620
1.057,-0.406,-0.204,-4.211,3.479,-10.925
1.075,-0.457,-0.244,-1.160,2.014,-4.456
1.063,-0.365,-0.243,0.916,-2.014,5.859
1.034,-0.207,-0.148,3.052,-7.080,15.808
1.001,-0.086,-0.121,4.517,-9.094,20.874
0.975,0.041,-0.124,5.432,-9.277,22.888
0.963,0.104,-0.064,7.019,-10.193,20.996
0.990,0.078,-0.012,10.132,-9.583,15.686
1.010,0.040,-0.009,11.963,-7.568,11.169
1.032,0.016,0.060,11.536,-8.911,9.155
1.051,0.026,0.157,9.033,-11.169,8.545
1.070,0.019,0.208,6.653,-9.888,8.179
1.073,-0.003,0.237,3.052,-7.080,8.850
1.066,0.007,0.243,-2.014,-4.639,11.475
1.063,0.042,0.218,-8.728,-2.808,14.282
1.040,0.070,0.154,-16.479,-1.221,15.747
1.030,0.100,0.078,-22.217,0.854,15.564
1.022,0.069,0.036,-20.752,2.930,12.695
1.039,0.014,0.037,-12.817,4.944,9.399
1.037,-0.018,0.045,-5.981,6.104,8.179
1.015,-0.003,0.037,-3.052,7.385,9.766
0.997,0.019,0.046,-0.366,7.996,11.597
0.965,0.071,0.064,1.648,8.240,12.390
0.941,0.125,0.032,1.526,10.803,12.024
0.933,0.109,-0.025,1.526,13.123,8.667
0.937,0.047,-0.069,0.977,12.695,4.150
0.947,0.010,-0.066,-0.183,10.193,1.831
0.952,-0.017,-0.058,-2.380,8.728,1.099
0.950,-0.038,-0.080,-4.272,9.033,1.160
0.944,-0.027,-0.094,-6.104,8.240,1.892
0.930,-0.003,-0.118,-6.409,7.446,2.502
0.913,0.011,-0.130,-4.150,6.775,1.770
0.911,-0.001,-0.111,-0.732,4.639,-0.488
0.911,-0.038,-0.080,0.854,2.808,-2.014
0.923,-0.065,-0.084,0.000,2.686,-2.319
0.911,-0.049,-0.112,-3.723,2.136,-1.160
0.896,0.017,-0.105,-10.498,-1.160,0.549
0.917,0.186,-0.079,-19.287,-4.822,-0.061
0.845,0.214,-0.097,-31.067,-6.775,-8.118
0.809,0.161,-0.111,-35.583,-7.507,-17.578
0.825,0.167,-0.034,-35.889,-9.033,-19.470
0.839,0.143,0.040,-34.729,-8.545,-21.484
0.845,0.055,0.069,-30.701,-4.700,-27.893
0.864,-0.076,0.077,-25.757,1.221,-32.227
0.900,-0.182,0.028,-25.391,6.042,-30.823
0.901,-0.244,-0.047,-34.424,6.287,-24.353
0.847,-0.227,-0.090,-64.880,-7.629,-1.648
0.771,0.037,-0.013,-72.632,-19.470,8.850
0.728,0.162,0.091,-70.923,-24.536,11.963
0.708,0.246,0.130,-60.059,-20.325,7.263
0.705,0.348,0.142,-43.762,-11.841,-2.136
0.716,0.341,0.085,-24.841,1.831,-14.771
0.776,0.157,-0.058,-2.563,17.700,-30.334
0.852,-0.139,-0.197,14.221,25.574,-41.626
0.917,-0.399,-0.214,24.353,23.315,-41.382
0.924,-0.535,-0.075,25.696,14.038,-27.405
0.918,-0.549,0.001,19.714,5.249,-8.057
0.913,-0.421,0.018,7.141,-3.357,11.230
0.865,-0.108,0.099,-9.949,-12.451,27.649
0.836,0.254,0.143,-23.621,-14.160,32.898
0.870,0.460,0.076,-31.128,-4.883,22.888
0.831,0.424,-0.066,-31.616,10.132,3.357
0.858,0.191,-0.218,-24.536,23.193,-16.968
0.939,-0.182,-0.234,-14.771,24.231,-31.494
0.985,-0.548,-0.192,-7.812,18.250,-33.997
0.991,-0.681,-0.084,-8.667,9.766,-19.104
1.822,-0.596,0.578,2.014,-50.964,-27.039
1.824,-0.466,0.509,5.249,-32.532,-4.639
1.813,-0.297,0.341,1.648,-17.944,14.526
1.806,-0.185,0.190,-7.202,-12.329,25.940
1.818,-0.110,0.061,-19.226,-15.015,32.349
1.813,-0.023,0.007,-32.837,-23.193,36.987
1.767,0.093,0.086,-50.476,-34.546,42.053
1.699,0.191,0.172,-70.313,-42.297,43.945
1.615,0.288,0.222,-89.661,-44.495,43.152
1.542,0.361,0.248,-106.750,-44.678,39.734
1.500,0.312,0.243,-122.498,-45.532,33.142
1.524,0.136,0.325,-129.517,-49.744,24.841
1.549,-0.044,0.279,-124.390,-46.997,20.996
1.458,-0.011,0.127,-119.751,-35.278,42.603
1.313,0.171,-0.049,-105.652,-17.944,36.255
1.026,0.352,-0.331,-28.931,13.733,22.461
0.983,0.160,-0.313,14.587,17.822,1.526
0.936,-0.125,-0.291,42.969,18.982,-18.372
0.827,-0.331,-0.367,45.837,16.663,-27.649
0.661,-0.253,-0.419,33.936,9.827,-25.208
0.378,-0.208,-0.320,29.602,-0.916,-26.855
0.081,-0.358,-0.078,44.983,-6.653,-36.438
-0.091,-0.771,0.185,90.332,-2.930,-48.279
-0.153,-1.391,0.406,161.194,10.620,-53.528
-0.256,-1.925,0.478,233.521,28.381,10.742
-0.753,-1.978,0.605,324.585,17.517,76.172
-1.048,-1.456,1.053,306.824,-27.771,140.076
-1.199,-0.885,1.708,258.606,-78.918,182.617
-1.103,-0.421,2.290,205.933,-113.647,201.843
-0.993,0.081,2.638,134.888,-120.300,216.125
-0.817,0.729,2.552,54.016,-93.445,229.431
-0.818,1.600,1.925,-14.404,-40.039,238.464
-0.898,2.619,0.916,-53.284,22.400,234.253
-0.995,3.437,0.064,-60.608,71.350,201.721
-1.112,3.899,-0.523,-44.617,105.103,131.226
-1.007,3.691,-1.004,-1.831,132.446,29.541
-0.736,2.545,-1.201,96.191,129.761,-189.575
0.094,-0.371,-1.050,120.911,113.525,-239.746
0.614,-1.344,-0.859,127.563,98.938,-241.516
0.903,-1.844,-0.768,113.770,89.172,-214.661
1.086,-2.069,-0.953,102.478,82.886,-172.974
1.101,-1.810,-1.106,90.637,63.782,-110.901
1.049,-1.219,-0.951,67.566,27.954,-49.988
0.951,-0.594,-0.586,36.133,-6.104,-10.254
0.910,-0.062,-0.227,-1.282,-17.578,-3.967
0.983,-0.132,-0.244,-5.737,-7.568,-14.771
1.047,-0.269,-0.173,-1.770,-2.197,-23.376
1.093,-0.399,-0.049,4.456,0.977,-24.902
1.114,-0.470,0.029,8.667,4.089,-18.127
1.096,-0.405,0.038,7.446,6.470,-5.798
1.049,-0.279,-0.005,3.662,8.423,4.639
1.047,-0.172,-0.036,1.709,5.920,9.949
1.043,-0.047,-0.032,1.770,-0.366,10.132
1.038,-0.001,0.068,5.066,-6.165,5.493
1.057,-0.036,0.206,13.489,-8.301,-2.319
1.069,-0.150,0.264,20.996,-3.967,-9.705
1.065,-0.242,0.213,22.400,4.272,-11.780
1.066,-0.274,0.132,16.418,9.399,-8.362
1.062,-0.291,0.031,8.118,9.155,-4.761
1.058,-0.224,-0.046,2.747,7.507,0.610
1.020,-0.121,-0.011,-1.465,3.662,7.263
0.987,-0.012,0.060,-4.028,0.305,11.169
0.957,0.089,0.085,-6.226,0.366,11.780
0.916,0.153,0.047,-5.615,3.479,8.850
0.890,0.207,0.003,-4.456,5.676,4.211
0.865,0.203,-0.018,-3.906,4.700,-2.930
0.886,0.185,-0.007,-3.357,2.747,-10.071
0.906,0.108,-0.038,-2.014,3.357,-17.395
0.940,-0.002,-0.063,1.648,4.211,-23.315
0.958,-0.094,-0.040,5.798,3.357,-26.184
0.989,-0.189,0.009,8.301,2.380,-25.024
1.033,-0.332,0.069,7.935,3.479,-20.203
1.006,-0.297,0.022,3.906,6.104,-12.451
0.984,-0.240,-0.019,-3.479,7.446,-5.676
0.954,-0.232,-0.050,-10.864,5.798,-3.357
0.957,-0.242,-0.090,-14.282,4.395,-3.784
0.982,-0.263,-0.059,-14.771,1.770,-4.395
1.000,-0.313,-0.046,-11.353,0.000,-5.371
1.006,-0.332,-0.066,-6.531,-0.305,-3.418
1.018,-0.304,-0.064,-1.648,-2.075,-0.488
1.003,-0.233,-0.042,0.732,-3.967,4.150
0.977,-0.134,-0.055,2.075,-4.150,7.385
0.979,-0.107,-0.040,2.441,-5.188,6.653
0.997,-0.162,0.030,3.723,-7.385,2.808
1.004,-0.201,0.057,3.113,-6.409,1.831
0.993,-0.198,0.047,-0.977,-5.127,3.296
0.987,-0.163,0.046,-6.165,-4.883,5.432
0.974,-0.137,-0.010,-7.690,-3.723,6.165
0.984,-0.117,-0.048,-6.409,-2.502,6.348
1.001,-0.122,-0.086,-3.235,-2.136,6.042
1.023,-0.128,-0.079,0.671,-2.991,6.226
1.025,-0.124,-0.013,2.930,-6.287,7.141
1.014,-0.074,0.051,3.662,-8.850,9.827
0.977,0.026,0.156,0.488,-10.010,8.423
0.953,0.036,0.148,-0.427,-7.507,5.371
0.948,0.027,0.080,-1.709,-3.540,1.709
0.963,-0.043,0.006,-2.625,-1.892,-1.770
0.994,-0.116,-0.037,-2.991,-2.075,-3.906
1.019,-0.153,-0.049,-2.319,-2.563,-3.662
1.021,-0.143,-0.050,-1.038,-3.113,-1.831
1.017,-0.106,-0.034,0.916,-3.601,0.122
1.007,-0.090,0.035,3.296,-3.906,1.099
1.006,-0.084,0.025,5.127,-2.136,1.587
0.995,-0.098,0.004,5.188,-0.671,0.977
0.991,-0.115,0.014,3.540,-3.235,0.488
0.979,-0.118,0.018,-1.038,-5.798,0.916
0.982,-0.110,-0.008,-6.287,-7.935,1.892
0.987,-0.111,0.042,-4.211,-8.362,1.465
1.005,-0.125,0.059,-0.610,-6.592,0.671
1.026,-0.212,0.084,3.723,-4.822,-0.610
1.037,-0.241,0.089,6.897,-3.174,1.892
1.028,-0.198,0.101,7.019,-3.296,7.629
1.001,-0.086,0.129,3.906,-4.456,13.672
0.971,0.035,0.112,-0.549,-4.700,16.724
0.937,0.090,0.097,-2.747,-4.395,14.465
0.933,0.119,0.118,-2.319,-4.333,9.460
0.952,0.086,0.129,-3.113,-3.235,3.052
0.982,-0.023,0.085,-2.441,-1.160,-4.211
1.019,-0.123,0.044,1.465,1.404,-8.362
2.342,-0.310,0.314,25.879,37.537,-77.148
2.385,-0.447,0.290,28.381,47.241,-77.820
2.380,-0.556,0.232,30.701,57.312,-72.021
2.334,-0.555,0.146,27.710,64.636,-56.946
2.262,-0.452,0.054,24.353,68.604,-38.635
2.194,-0.295,0.038,22.705,67.566,-23.254
2.119,-0.143,0.049,17.639,64.148,-12.512
2.059,-0.031,0.051,13.000,61.951,-7.568
2.010,0.085,0.005,10.681,62.378,-6.226
2.009,0.271,-0.134,13.184,64.453,-9.094
1.999,0.430,-0.305,13.550,63.721,-18.860
2.002,0.436,-0.373,12.573,57.129,-53.040
2.142,-0.527,0.130,20.142,30.151,-65.979
2.191,-1.074,0.466,14.709,24.475,-54.993
2.095,-1.274,0.566,-16.113,35.645,-17.578
1.978,-1.186,0.378,-53.589,54.871,26.733
1.858,-0.991,-0.066,-101.135,62.683,64.331
1.675,-0.872,-0.601,-156.738,43.579,88.928
1.485,-0.634,-0.964,-206.238,-4.395,105.713
1.291,-0.367,-1.039,-246.033,-68.726,115.295
1.068,-0.159,-0.890,-278.320,-127.380,117.188
0.853,0.095,-0.584,-298.401,-160.767,118.408
0.901,0.150,-0.160,-293.945,-155.090,117.310
0.576,0.347,-0.615,-269.958,-99.365,121.399
0.339,0.641,-0.979,-222.839,-61.096,124.451
0.167,0.898,-1.099,-115.479,-39.490,79.102
0.037,0.207,-1.095,-63.843,-40.405,46.265
-0.087,-0.203,-0.906,-28.015,-48.035,32.349
-0.224,-0.552,-0.753,-2.869,-55.603,31.860
-0.353,-0.812,-0.579,19.653,-65.918,35.767
-0.536,-0.890,-0.369,42.908,-76.477,44.067
-0.758,-0.806,-0.284,78.003,-72.754,59.570
-1.026,-0.553,-0.308,129.578,-59.387,79.712
-1.258,-0.228,-0.222,196.289,-57.312,93.445
-1.403,0.081,0.122,258.728,-72.937,83.618
-1.177,0.105,1.512,335.754,-109.863,64.209
-0.837,-0.293,2.290,325.378,-111.694,45.837
-0.483,-0.434,2.776,275.085,-93.933,46.082
-0.171,-0.255,2.968,204.712,-52.307,65.979
-0.055,0.153,2.606,134.033,9.705,88.928
-0.112,0.615,1.695,75.439,80.688,107.544
-0.151,1.139,0.703,43.335,128.906,111.511
-0.210,1.649,-0.103,29.053,147.583,96.680
-0.213,1.902,-0.654,28.076,148.621,59.265
-0.108,1.691,-1.045,37.903,140.503,3.052
0.080,1.106,-1.167,53.284,123.108,-54.749
0.337,0.434,-1.062,64.758,102.478,-95.093
0.643,-0.267,-0.835,77.209,85.754,-118.225
0.925,-0.868,-0.536,84.595,71.411,-119.690
1.074,-1.088,-0.374,80.994,64.331,-97.595
1.073,-0.908,-0.395,71.289,62.561,-65.063
1.039,-0.585,-0.443,61.829,56.152,-37.292
1.036,-0.387,-0.424,54.016,43.274,-24.780
1.043,-0.353,-0.337,47.485,30.640,-22.339
1.018,-0.302,-0.256,35.828,20.447,-18.005
1.023,-0.173,-0.220,15.076,12.085,-10.132
1.033,-0.091,-0.164,-6.042,3.296,-7.446
1.013,-0.059,-0.059,-18.921,-1.831,-10.193
1.025,-0.146,-0.000,-18.860,1.160,-16.968
1.098,-0.326,0.054,-11.658,5.615,-24.658
1.186,-0.536,0.050,-6.226,9.766,-24.658
1.203,-0.626,-0.097,-2.563,15.747,-14.099
1.179,-0.520,-0.202,1.892,13.977,3.296
1.113,-0.309,-0.172,6.348,4.883,20.020
1.004,-0.043,-0.070,9.827,-4.089,31.677
0.928,0.187,0.046,7.690,-10.376,34.180
0.867,0.311,0.177,-0.122,-15.259,25.330
0.881,0.179,0.160,-9.216,-6.653,-3.967
0.888,0.101,0.057,-11.841,0.854,-10.803
0.930,0.023,-0.021,-10.437,5.005,-12.512
0.957,-0.056,-0.045,-7.812,3.784,-2.930
0.906,0.146,-0.037,-8.911,1.709,5.676
0.876,0.224,-0.010,-9.583,-0.732,7.263
0.872,0.205,-0.017,-8.118,-0.305,2.686
0.883,0.110,-0.153,-0.427,4.333,-10.376
0.915,-0.143,-0.160,-0.061,0.916,-12.146
0.941,-0.201,-0.158,-6.897,-3.967,-9.277
0.962,-0.203,-0.162,-15.991,-9.277,2.197
0.958,-0.079,-0.023,-25.330,-19.592,7.812
0.927,0.036,0.019,-27.771,-21.790,11.902
0.885,0.169,0.122,-29.419,-23.682,13.916
0.852,0.199,0.210,-30.212,-23.621,9.827
0.869,0.151,0.189,-33.203,-19.287,2.502
0.923,0.014,0.103,-17.822,-10.742,-8.606
1.052,-0.209,0.048,-26.428,-11.841,-8.423
1.121,-0.317,0.104,-23.865,-15.991,-5.554
1.144,-0.323,0.162,-21.545,-18.555,1.343
1.133,-0.221,0.212,-18.005,-17.822,11.841
1.096,-0.109,0.246,-13.367,-15.686,19.348
1.062,0.038,0.256,-10.925,-11.902,23.193
1.061,0.105,0.187,-5.920,-5.066,20.325
1.073,0.094,0.088,2.319,1.831,12.512
1.080,0.029,0.087,14.404,6.226,5.371
1.106,-0.055,0.146,24.780,7.202,1.465
1.131,-0.128,0.222,23.376,5.188,2.686
1.125,-0.122,0.258,11.841,2.747,8.484
1.096,-0.027,0.294,-3.235,0.366,16.846
1.050,0.071,0.350,-14.099,-1.099,22.827
1.008,0.155,0.343,-18.250,1.892,24.536
0.977,0.231,0.283,-19.226,6.958,23.254
0.959,0.264,0.220,-17.883,10.620,19.409
0.944,0.304,0.178,-15.747,13.977,14.648
0.934,0.287,0.148,-11.658,17.151,8.179
0.928,0.245,0.148,-5.005,19.470,1.038
0.931,0.217,0.160,-0.610,22.461,-2.319
0.943,0.147,0.195,1.465,24.963,-5.310
0.947,0.059,0.207,-1.404,27.832,-6.714
0.945,0.012,0.171,-8.423,32.288,-4.578
0.909,0.022,0.152,-15.381,32.837,-0.671
0.857,0.101,0.049,-18.860,28.564,4.211
0.869,0.216,0.078,-21.790,17.517,6.653
0.856,0.248,0.101,-21.301,16.663,3.723
0.831,0.311,-0.014,-14.038,29.541,1.892
0.822,0.342,-0.108,-4.150,36.560,-1.343
0.826,0.306,-0.135,8.301,33.691,-7.874
0.836,0.173,-0.115,17.334,28.381,-16.357
0.881,0.007,-0.109,19.714,23.254,-23.621
0.884,-0.164,-0.133,16.357,18.982,-26.428
0.956,-0.158,-0.358,12.939,1.282,-15.381
2.019,-0.236,-0.250,46.631,37.354,-23.254
2.064,-0.308,-0.150,44.678,24.963,-21.790
2.056,-0.366,-0.042,42.786,20.203,-19.226
2.026,-0.387,-0.105,38.574,26.489,-10.376
1.978,-0.408,-0.156,32.837,26.611,-0.732
1.912,-0.377,-0.139,20.325,17.456,11.780
1.836,-0.281,-0.084,3.845,5.127,25.635
1.753,-0.165,-0.026,-13.062,-3.845,37.476
1.665,-0.064,0.015,-30.151,-10.193,46.570
1.585,0.037,0.055,-46.326,-15.198,54.016
1.508,0.158,0.029,-61.218,-16.907,59.875
1.425,0.269,-0.106,-73.975,-15.991,62.073
1.378,0.412,-0.206,-85.144,-22.156,58.289
1.383,0.550,-0.229,-94.849,-33.203,50.903
1.378,0.674,-0.279,-103.333,-37.231,42.664
1.324,0.758,-0.346,-109.070,-36.560,19.653
1.154,0.828,-0.465,-103.638,-29.175,6.470
1.121,0.746,-0.483,-93.506,-27.588,-8.301
1.094,0.625,-0.531,-80.627,-23.315,-23.193
1.063,0.488,-0.704,-59.692,-11.658,-33.691
1.046,0.344,-0.875,-32.593,-3.174,-39.490
0.990,0.194,-0.953,-1.343,-1.953,-40.344
0.923,0.056,-1.008,28.442,-2.991,-35.889
0.835,-0.054,-1.022,44.739,-12.695,-28.320
0.751,-0.155,-0.972,47.058,-32.227,-20.325
0.642,-0.271,-0.811,41.992,-55.725,-11.780
0.565,-0.307,-0.644,34.973,-74.402,0.061
0.521,-0.274,-0.250,49.377,-89.539,23.132
0.311,0.081,-0.034,74.585,-83.069,25.452
0.249,0.151,0.194,106.750,-71.899,15.747
0.204,0.127,0.345,137.451,-55.908,-1.831
0.159,-0.056,0.409,165.161,-39.429,-26.855
0.089,-0.176,0.521,188.416,-30.151,-51.697
0.079,-0.500,0.568,213.135,-20.447,-80.078
0.045,-0.871,0.668,237.427,-13.000,-102.356
-0.032,-1.254,0.677,258.667,-7.080,-109.497
-0.056,-1.578,0.703,279.419,-10.681,-105.774
0.111,-1.958,1.800,316.345,-63.782,-68.542
0.279,-2.164,2.756,292.664,-89.233,-39.856
0.435,-2.250,3.430,230.347,-86.792,0.366
0.509,-1.897,3.391,128.357,-50.171,60.913
0.409,-1.195,2.571,8.240,0.183,128.906
0.023,-0.003,1.495,-99.854,43.762,191.650
-0.401,1.574,0.652,-170.715,75.989,235.352
-0.677,3.051,0.189,-183.472,96.741,228.699
-0.731,3.888,-0.178,-142.212,122.620,160.034
-0.675,3.461,-0.681,-66.406,152.222,45.593
-0.332,2.147,-1.229,12.268,164.673,-73.303
0.006,0.603,-1.423,62.134,147.644,-153.687
0.341,-0.666,-1.364,84.778,116.089,-182.800
0.634,-1.421,-1.050,85.571,78.552,-166.626
0.805,-1.616,-0.614,72.388,46.753,-121.033
0.825,-1.251,-0.407,55.359,37.109,-64.148
0.759,-0.655,-0.499,38.330,44.556,-19.592
0.719,-0.320,-0.591,21.912,44.983,-3.113
0.723,-0.204,-0.612,3.662,38.696,-2.563
0.723,-0.104,-0.673,-15.564,34.485,-3.174
0.714,-0.067,-0.692,-29.724,28.564,-6.165
0.710,-0.015,-0.607,-38.574,18.860,-11.292
0.777,-0.095,-0.469,-39.490,10.010,-18.860
0.863,-0.256,-0.488,-35.889,10.071,-24.475
0.948,-0.383,-0.516,-16.052,7.812,-17.151
1.034,-0.363,-0.279,-6.897,1.404,-10.925
1.016,-0.255,-0.153,-2.014,-0.977,-4.333
0.974,-0.126,-0.081,2.197,0.977,-0.671
0.937,-0.087,-0.070,4.944,2.563,-2.441
0.949,-0.111,-0.072,3.723,2.319,-7.507
0.975,-0.171,-0.125,-2.930,1.831,-11.841
0.999,-0.100,-0.126,-21.301,-4.944,-7.141
1.024,-0.053,-0.034,-23.865,-9.338,-5.737
1.021,-0.013,0.004,-20.691,-7.690,-5.920
1.009,-0.036,0.039,-10.620,-3.967,-8.911
1.008,-0.115,0.074,-1.343,-1.221,-12.756
1.004,-0.190,0.052,1.099,2.502,-13.855
1.002,-0.229,-0.030,-0.549,5.310,-11.658
1.002,-0.160,-0.065,-4.333,3.723,-7.202
0.994,-0.075,-0.019,-7.751,-0.183,-4.150
0.989,-0.078,0.035,-8.484,-2.136,-6.348
1.020,-0.133,0.075,-8.179,-2.319,-9.949
1.035,-0.230,0.047,-9.766,-0.305,-11.658
1.018,-0.298,-0.008,-13.245,1.709,-10.132
1.017,-0.319,-0.057,-15.869,1.770,-6.531
1.004,-0.314,-0.122,-15.564,1.892,-3.113
0.983,-0.252,-0.142,-10.986,0.916,-0.427
0.985,-0.217,-0.093,-3.418,-1.404,0.000
0.997,-0.225,-0.012,2.808,-3.052,-0.854
0.998,-0.225,0.015,4.272,-2.197,-0.244
1.000,-0.190,0.038,1.099,-1.892,0.977
0.975,-0.133,0.086,-4.761,-2.625,1.465
0.958,-0.115,0.003,-9.705,1.160,-0.671
0.962,-0.198,-0.067,-9.521,3.784,-5.920
0.971,-0.281,-0.109,-3.723,1.892,-9.338
0.998,-0.403,-0.134,-2.075,0.244,-5.676
0.998,-0.377,-0.164,-1.282,-0.854,0.244
0.990,-0.286,-0.179,-1.526,-2.625,7.263
0.979,-0.223,-0.141,-2.502,-5.249,11.292
0.987,-0.193,-0.050,-3.174,-9.277,11.963
0.989,-0.154,-0.012,-3.967,-9.888,11.719
0.994,-0.107,0.019,-3.906,-8.850,10.559
1.001,-0.132,0.055,-6.104,-5.066,5.920
0.976,-0.128,-0.030,-5.493,-2.197,7.019
0.980,-0.125,-0.094,-3.235,-1.526,7.202
0.981,-0.103,-0.113,1.282,-1.770,7.690
0.992,-0.083,-0.085,6.287,-2.686,7.446
1.003,-0.045,-0.028,8.850,-3.845,6.409
1.013,-0.049,0.015,11.719,-4.028,4.150
1.005,-0.053,0.055,13.062,-3.601,1.831
1.003,-0.082,0.089,11.841,-2.869,0.122
1.005,-0.135,0.049,7.385,-1.404,-1.404
1.000,-0.167,-0.082,-3.174,-0.793,0.366
0.974,-0.137,-0.109,-5.493,-2.502,1.709
0.968,-0.100,-0.135,-5.981,-3.723,2.014
0.963,-0.086,-0.112,-6.653,-5.554,1.404
0.965,-0.094,-0.100,-4.944,-7.019,-0.244
0.966,-0.085,-0.128,-2.502,-6.042,-1.587
0.967,-0.076,-0.097,14.465,-8.667,-3.906
0.974,-0.123,-0.020,1.709,-8.240,-5.432
0.987,-0.170,0.028,2.441,-8.423,-6.470
0.988,-0.184,0.034,0.854,-7.019,-5.493